Folder: plasmo-split

File: forLance.dat
# wavelength[nm] Qabs--0.0nm[1] Qabs--9.0nm[1] Qabs--17.0nm[1] Qabs--26.0nm[1] Qabs--35.0nm[1] Qabs--CeO2 Solar Irradiance[W/m^2/nm] BB intensity@1300K[W/m^2/nm]
280 1.21997 1.59071 1.66928 1.63887 1.63489 1.63935 2.5361e-26 4.51508e-10
287.673 1.13843 1.59773 1.6825 1.63743 1.62897 1.74433 1.21069e-12 1.13334e-09
295.346 1.06445 1.58371 1.67608 1.61312 1.59647 1.78268 6.5446e-06 2.70261e-09
303.019 1.00137 1.57081 1.64304 1.55169 1.5231 1.77838 0.0037743 6.14701e-09
310.692 0.966803 1.54341 1.62965 1.52065 1.47611 1.72465 0.0395366 1.33831e-08
318.365 0.972129 1.49917 1.66616 1.54616 1.48703 1.70464 0.0989091 2.79816e-08
326.038 0.962903 1.34042 1.73133 1.60742 1.52677 1.64217 0.209673 5.63478e-08
333.711 0.959116 1.08852 1.70763 1.65652 1.50011 1.37117 0.23501 1.09579e-07
341.384 0.966945 0.904326 1.45569 1.73561 1.39242 0.935051 0.278713 2.06287e-07
349.058 0.97674 0.787149 1.13996 1.74526 1.33059 0.597571 0.289625 3.76758e-07
356.731 0.991278 0.696601 0.856368 1.51316 1.30466 0.344985 0.316649 6.6892e-07
364.404 1.02875 0.660605 0.715395 1.21403 1.33938 0.231719 0.402354 1.15665e-06
372.077 1.06645 0.630631 0.602424 0.891347 1.2869 0.138512 0.461811 1.9511e-06
379.75 1.10666 0.619547 0.544679 0.700054 1.15971 0.0950298 0.48502 3.21569e-06
387.423 1.15828 0.611801 0.496893 0.555645 0.895012 0.0574962 0.468254 5.18567e-06
395.096 1.22068 0.611959 0.471854 0.484087 0.702973 0.0429854 0.608643 8.19293e-06
402.769 1.27669 0.617484 0.458131 0.441757 0.572018 0.0341813 0.889447 1.2697e-05
410.442 1.35846 0.638456 0.457991 0.421309 0.496595 0.0281107 0.852685 1.93232e-05
418.115 1.45409 0.663397 0.461417 0.40938 0.450314 0.0241859 0.92848 2.89078e-05
425.788 1.56031 0.689354 0.464735 0.39906 0.41442 0.0205945 0.972273 4.25529e-05
433.461 1.68064 0.719779 0.470159 0.391633 0.387551 0.0172838 0.956384 6.16886e-05
441.134 1.79372 0.757479 0.482121 0.391915 0.37423 0.0152131 1.09639 8.81459e-05
448.807 1.91105 0.798628 0.495675 0.394335 0.366242 0.0139625 1.24115 0.000124238
456.48 2.04108 0.850776 0.514051 0.40008 0.362334 0.0127991 1.31481 0.00017285
464.153 2.15399 0.916306 0.540287 0.411775 0.364516 0.0117119 1.3032 0.000237543
471.827 2.24741 0.990548 0.570292 0.425804 0.369159 0.0106918 1.3542 0.000322655
479.5 2.31504 1.06527 0.598941 0.438641 0.37359 0.00983787 1.37054 0.000433425
487.173 2.34329 1.14101 0.627781 0.451762 0.379067 0.00920486 1.24106 0.000576108
494.846 2.33 1.22559 0.661572 0.468003 0.387091 0.00860721 1.4109 0.000758109
502.519 2.28145 1.32247 0.700945 0.487136 0.397116 0.00804172 1.33054 0.000988106
510.192 2.19101 1.43399 0.748394 0.510749 0.41028 0.00750558 1.35461 0.00127619
517.865 2.0594 1.55269 0.804341 0.539791 0.427517 0.00699628 1.23904 0.001634
525.538 1.91689 1.66956 0.863076 0.570042 0.445364 0.00648162 1.36546 0.00207483
533.211 1.77769 1.77648 0.921074 0.599306 0.462087 0.00572444 1.27801 0.0026138
540.884 1.63211 1.8753 0.987017 0.634215 0.483003 0.00500052 1.26531 0.00326794
548.557 1.48753 1.96626 1.06176 0.674597 0.507515 0.00430731 1.35656 0.0040563
556.23 1.3456 2.04396 1.14751 0.722059 0.536608 0.00364246 1.3575 0.0050001
563.903 1.21364 2.09238 1.24047 0.775857 0.570122 0.00305168 1.34916 0.00612275
571.576 1.09427 2.10442 1.33587 0.834559 0.607629 0.00300243 1.32273 0.00745
579.249 0.990194 2.0823 1.42967 0.896252 0.647406 0.00295553 1.32861 0.00900995
586.922 0.896495 2.02769 1.52299 0.963694 0.691639 0.00291083 1.36848 0.0108331
594.595 0.812893 1.94302 1.61063 1.03647 0.740701 0.00286817 1.29343 0.0129525
602.269 0.74379 1.84387 1.68018 1.1062 0.789266 0.00282744 1.30024 0.0154034
609.942 0.681512 1.73301 1.73668 1.17775 0.840779 0.00254282 1.32402 0.0182239
617.615 0.626905 1.60951 1.76805 1.24801 0.895837 0.00202248 1.30415 0.0214541
625.288 0.57632 1.48253 1.7792 1.319 0.956138 0.00151987 1.26635 0.0251367
632.961 0.530734 1.3585 1.76596 1.38508 1.01907 0.00103395 1.30793 0.0293168
640.634 0.489719 1.24081 1.72882 1.44238 1.08296 0.000563778 1.29671 0.0340415
648.307 0.453862 1.13407 1.67071 1.4843 1.14296 0.000211116 1.2505 0.0393602
655.98 0.421875 1.03753 1.59659 1.5086 1.19688 0.000215735 1.07569 0.0453242
663.653 0.393063 0.948929 1.50967 1.51479 1.24425 0.000220219 1.26095 0.0519867
671.326 0.367768 0.869812 1.41547 1.50039 1.28013 0.000224574 1.2771 0.0594027
678.999 0.345146 0.799425 1.32021 1.46893 1.30351 0.000228807 1.26291 0.0676286
686.672 0.324422 0.735689 1.22557 1.42272 1.31398 0.000232928 0.992507 0.0767224
694.345 0.304862 0.676738 1.13219 1.36397 1.31136 0.000236919 1.1394 0.086743
702.018 0.286114 0.621435 1.04016 1.29375 1.2944 0.000240771 1.15012 0.0977505
709.691 0.268951 0.571686 0.9537 1.21622 1.26211 0.000244522 1.19312 0.109806
717.364 0.253997 0.528388 0.874979 1.13497 1.21481 0.000248177 0.982817 0.12297
725.038 0.24215 0.494147 0.810397 1.06051 1.16055 0.00025174 0.948873 0.137305
732.711 0.231093 0.462814 0.750937 0.987985 1.10121 0.00025524 1.07907 0.152873
740.384 0.220774 0.434007 0.695995 0.917797 1.03813 0.000258731 1.11033 0.169736
748.057 0.210533 0.406138 0.643249 0.848485 0.971499 0.000262145 1.13209 0.187954
755.73 0.200977 0.380689 0.595281 0.783676 0.905153 0.000265485 1.12218 0.207589
763.403 0.192066 0.357426 0.551684 0.723535 0.840444 0.000268757 0.411258 0.228702
771.076 0.183778 0.336092 0.511874 0.667689 0.777871 0.000271959 1.07225 0.25135
778.749 0.176003 0.316496 0.475683 0.616483 0.718814 0.000275098 1.07907 0.275593
786.422 0.168711 0.298489 0.442795 0.569728 0.663698 0.000278171 1.06028 0.301487
794.095 0.162202 0.282655 0.414076 0.528655 0.614309 0.000281183 1.00977 0.329086
801.768 0.15621 0.268319 0.388331 0.491808 0.569462 0.000284138 1.00079 0.358444
809.441 0.150545 0.255008 0.364723 0.458129 0.5282 0.000287037 0.974126 0.389613
817.114 0.145178 0.242671 0.343164 0.427547 0.490615 0.000289885 0.786772 0.422641
824.787 0.140088 0.231238 0.323494 0.399849 0.456555 0.000292638 0.890857 0.457576
832.46 0.135261 0.220575 0.305378 0.374492 0.425369 0.000295321 0.855672 0.494462
840.133 0.130501 0.210203 0.287975 0.350325 0.395723 0.000297955 0.940575 0.53334
847.807 0.125758 0.19992 0.270878 0.326735 0.366859 0.000300542 0.919978 0.57425
855.48 0.121276 0.19036 0.25518 0.305239 0.340631 0.000303084 0.874301 0.617228
863.153 0.117267 0.181877 0.24133 0.28632 0.317535 0.000305658 0.926321 0.662308
870.826 0.114358 0.17573 0.231207 0.272345 0.300277 0.000308254 0.88891 0.709521
878.499 0.111548 0.169875 0.221679 0.259307 0.284272 0.000310811 0.878773 0.758893
886.172 0.108841 0.164305 0.212712 0.247136 0.269416 0.000313333 0.845638 0.810449
893.845 0.105533 0.157624 0.202223 0.233218 0.252741 0.000315819 0.797231 0.864211
901.518 0.102314 0.151178 0.192203 0.220029 0.237033 0.000318273 0.594447 0.920195
909.191 0.099247 0.145128 0.182913 0.207909 0.222688 0.000320658 0.645065 0.978418
916.864 0.0963548 0.139517 0.174405 0.196911 0.209754 0.000322931 0.664126 1.03889
924.537 0.0935857 0.134221 0.166463 0.186728 0.197852 0.00032517 0.670607 1.10162
932.21 0.0909401 0.129221 0.159039 0.177281 0.186871 0.000327378 0.273505 1.16661
939.883 0.0886035 0.124837 0.152556 0.169053 0.177323 0.000329555 0.436147 1.23386
947.556 0.086499 0.120888 0.146725 0.161666 0.168765 0.000331702 0.299483 1.30338
955.229 0.0844731 0.117123 0.141213 0.154731 0.160773 0.000333836 0.319269 1.37516
962.902 0.0824973 0.113491 0.135946 0.148155 0.15324 0.00033595 0.470072 1.44918
970.575 0.0805976 0.11002 0.130945 0.141948 0.146167 0.000338037 0.639303 1.52545
978.249 0.0787786 0.106722 0.126229 0.136129 0.139568 0.000340098 0.584356 1.60393
985.922 0.0770269 0.103577 0.121768 0.130662 0.1334 0.000342133 0.700968 1.68463
993.595 0.0753096 0.100593 0.117616 0.125641 0.127797 0.00042169 0.702562 1.76751
1001.27 0.0735993 0.0977181 0.113694 0.120965 0.122637 0.000552931 0.696074 1.85256
1008.94 0.0719514 0.0949722 0.109976 0.116559 0.117799 0.000681949 0.677814 1.93975
1016.61 0.0703622 0.0923503 0.106453 0.11241 0.113265 0.000808808 0.665224 2.02905
1024.29 0.0687239 0.0896381 0.102829 0.108154 0.108609 0.00070481 0.652635 2.12044
1031.96 0.0671443 0.0870371 0.0993698 0.104109 0.104197 0.000596304 0.648499 2.21387
1039.63 0.0656714 0.0846266 0.0961761 0.100383 0.100139 0.000489731 0.63526 2.30931
1047.31 0.0643102 0.0823804 0.0931923 0.0968991 0.0963466 0.000385039 0.621767 2.40673
1054.98 0.0630132 0.080267 0.090404 0.0936634 0.0928466 0.000357076 0.61238 2.50608
1062.65 0.061775 0.0782709 0.0877871 0.0906418 0.0895933 0.000358672 0.591513 2.60733
1070.33 0.0606328 0.0764145 0.0853475 0.0878241 0.0865609 0.000360247 0.575443 2.71042
1078 0.0595909 0.074698 0.083081 0.0852019 0.0837382 0.000361802 0.570762 2.81532
1085.67 0.0585668 0.0730236 0.0808844 0.082674 0.0810288 0.000363336 0.53701 2.92197
1093.34 0.0575429 0.0713747 0.0787428 0.0802273 0.0784208 0.000364844 0.493481 3.03034
1101.02 0.0564693 0.0697123 0.0766343 0.0778561 0.0759217 0.000366151 0.471225 3.14035
1108.69 0.0554474 0.0681397 0.0746478 0.0756288 0.0735798 0.000367438 0.393319 3.25198
1116.36 0.0544743 0.0666509 0.0727745 0.0735347 0.0713828 0.000368706 0.150024 3.36515
1124.04 0.0534657 0.0651446 0.0709061 0.071466 0.0692279 0.000369953 0.105217 3.47982
1131.71 0.0524575 0.0636506 0.0690647 0.0694377 0.0671239 0.000371182 0.240546 3.59593
1139.38 0.051448 0.0621567 0.0672289 0.0674221 0.0650395 0.000372438 0.269386 3.71343
1147.06 0.0506072 0.0608601 0.0656033 0.0656168 0.0631594 0.000373707 0.0680175 3.83226
1154.73 0.0499251 0.0597547 0.0641862 0.0640235 0.0614876 0.000374958 0.254956 3.95235
1162.4 0.0493127 0.0587648 0.0629168 0.0625957 0.0599885 0.000376193 0.379273 4.07366
1170.08 0.0486784 0.0577649 0.0616522 0.0611857 0.0585176 0.000377411 0.436574 4.19612
1177.75 0.0479361 0.0566464 0.0602688 0.0596613 0.056936 0.000341996 0.370732 4.31967
1185.42 0.0472253 0.0555593 0.0589127 0.0581564 0.0553626 0.00026527 0.41692 4.44425
1193.09 0.0465312 0.0545027 0.0575994 0.0567029 0.0538466 0.000189643 0.435002 4.5698
1200 0.0460889 0.053751 0.0566191 0.0555887 0.0526644 0.000122496 0.42789 4.68358

File: forSETO2021.dat
# wavelength[nm] Solar Irradiance[W/m^2/nm] BB intensity@1300K[W/m^2/nm] Au  SiC  B4C  TiN  ZrN
280 4.7309e-23 4.51508e-10 1.77882 1.46888 1.51265 1.63821 1.61683
286.906 2.37886e-12 1.03615e-09 1.83154 1.44737 1.48282 1.62996 1.62818
293.812 3.45674e-06 2.28032e-09 1.85045 1.42949 1.45696 1.61706 1.61932
300.717 0.00154265 4.82682e-09 1.84526 1.37881 1.39161 1.57139 1.61324
307.623 0.0361768 9.85338e-09 1.80202 1.36086 1.35383 1.56043 1.58828
314.529 0.130925 1.9446e-08 1.77937 1.37714 1.35546 1.59222 1.57675
321.435 0.239976 3.71847e-08 1.76609 1.43923 1.40162 1.67706 1.52761
328.34 0.365098 6.90358e-08 1.66517 1.5591 1.499 1.80776 1.32778
335.246 0.45859 1.24673e-07 1.47546 1.63921 1.5822 1.87572 1.10624
342.152 0.494905 2.19385e-07 1.28772 1.69539 1.66654 1.89685 0.931583
349.058 0.467068 3.76758e-07 1.1454 1.73479 1.74234 1.8715 0.805043
355.963 0.556542 6.32371e-07 1.03327 1.76821 1.80561 1.79978 0.700898
362.869 0.597508 1.03877e-06 0.980981 1.78732 1.83849 1.71405 0.658379
369.775 0.750395 1.67203e-06 0.936469 1.811 1.87291 1.61223 0.621704
376.681 0.681361 2.64025e-06 0.909189 1.82805 1.91099 1.51483 0.600796
383.586 0.452435 4.09436e-06 0.891087 1.83389 1.95334 1.4254 0.588377
390.492 0.803604 6.2416e-06 0.8768 1.82557 1.99025 1.34601 0.578597
397.398 0.587916 9.36213e-06 0.868213 1.80239 2.00862 1.28388 0.577304
404.304 1.1713 1.38291e-05 0.854779 1.7731 2.01028 1.22916 0.580727
411.209 1.18929 2.01326e-05 0.8365 1.74792 1.99615 1.18257 0.59876
418.115 1.18324 2.89078e-05 0.818688 1.72944 1.9684 1.17107 0.617195
425.021 1.24806 4.09678e-05 0.801999 1.71658 1.92712 1.17687 0.636073
431.927 1.28204 5.73407e-05 0.786649 1.70564 1.87358 1.1867 0.657687
438.832 1.18526 7.93126e-05 0.772226 1.69202 1.81238 1.20036 0.685143
445.738 1.35037 0.000108474 0.753447 1.67167 1.74924 1.21756 0.715516
452.644 1.4719 0.000146774 0.72897 1.64176 1.6867 1.23798 0.749515
459.55 1.5336 0.000196573 0.70444 1.60387 1.62899 1.26164 0.795724
466.455 1.53542 0.000260712 0.662197 1.56179 1.57859 1.28863 0.849283
473.361 1.55611 0.000342572 0.618863 1.51869 1.53635 1.31913 0.908937
480.267 1.61799 0.000446144 0.596934 1.47968 1.50569 1.35161 0.965506
487.173 1.44433 0.000576108 0.594611 1.44604 1.48396 1.3865 1.02468
494.078 1.56003 0.000737903 0.583589 1.41695 1.46908 1.42514 1.09065
500.984 1.49855 0.000937804 0.591953 1.39264 1.4604 1.47267 1.16485
507.89 1.52085 0.00118301 0.605449 1.37312 1.45689 1.52227 1.25194
514.796 1.52263 0.0014817 0.609593 1.35846 1.45822 1.57119 1.34721
521.701 1.55873 0.00184314 0.673006 1.34904 1.46371 1.6188 1.4497
528.607 1.57905 0.00227773 0.78576 1.34514 1.4733 1.66425 1.54332
535.513 1.58756 0.00279712 0.944359 1.34734 1.48601 1.70689 1.6377
542.419 1.54042 0.00341423 1.16173 1.35645 1.50239 1.74598 1.73002
549.324 1.54807 0.00414332 1.45319 1.37313 1.52157 1.78061 1.82271
556.23 1.5279 0.0050001 1.88517 1.39771 1.54359 1.80987 1.91097
563.136 1.53669 0.00600172 2.53005 1.4307 1.56742 1.83285 1.98361
570.042 1.47958 0.00716687 3.29174 1.47217 1.59351 1.84835 2.03299
576.947 1.50036 0.00851576 3.99012 1.52162 1.62039 1.85617 2.05619
583.853 1.54526 0.0100702 4.04061 1.57795 1.6473 1.85584 2.05467
590.759 1.44323 0.0118536 3.20746 1.63795 1.67351 1.84704 2.0246
597.665 1.46677 0.013891 2.19977 1.69726 1.69701 1.82969 1.97107
604.57 1.49062 0.016209 1.44146 1.75038 1.71654 1.80397 1.90022
611.476 1.47158 0.0188358 0.949741 1.78937 1.73038 1.77075 1.81435
618.382 1.46904 0.0218013 0.63785 1.80622 1.73676 1.73042 1.71295
625.288 1.4022 0.0251367 0.457499 1.79419 1.73401 1.68088 1.60364
632.193 1.38063 0.0288751 0.339562 1.74887 1.72048 1.62832 1.49255
639.099 1.46156 0.0330507 0.256709 1.6714 1.69479 1.57454 1.38305
646.005 1.41497 0.0376992 0.197007 1.56962 1.6578 1.52006 1.27901
652.911 1.42717 0.0428578 0.154774 1.45233 1.61086 1.46591 1.1833
659.817 1.3976 0.0485648 0.12512 1.32608 1.55485 1.41205 1.09339
666.722 1.41301 0.0548596 0.102049 1.19979 1.49071 1.3588 1.00925
673.628 1.40814 0.0617828 0.0838546 1.0795 1.42113 1.30645 0.934176
680.534 1.39402 0.0693761 0.069332 0.968619 1.34791 1.25524 0.865333
687.44 1.03521 0.0776817 0.0576163 0.867523 1.27243 1.20537 0.802167
694.345 1.25503 0.086743 0.0496186 0.776534 1.19787 1.15704 0.742919
701.251 1.26628 0.0966036 0.0433057 0.697037 1.12406 1.11038 0.686855
708.157 1.30554 0.107308 0.0379868 0.628166 1.0533 1.06537 0.635837
715.063 1.25951 0.118901 0.0334735 0.566965 0.98628 1.02206 0.589555
721.968 1.2358 0.131427 0.0296191 0.512988 0.921663 0.980482 0.552887
728.874 1.04577 0.144931 0.0263078 0.465443 0.862012 0.940626 0.519886
735.78 1.20852 0.159459 0.0240749 0.422916 0.805082 0.902329 0.489336
742.686 1.23258 0.175056 0.0221359 0.386515 0.754243 0.865671 0.460579
749.591 1.23475 0.191766 0.020413 0.354703 0.706533 0.830676 0.433121
756.497 1.22265 0.209633 0.0188759 0.32624 0.661373 0.797298 0.407857
763.403 0.443676 0.228702 0.0174995 0.300231 0.619823 0.765485 0.384598
770.309 1.16321 0.249015 0.0162628 0.277162 0.581907 0.735181 0.363109
777.214 1.1724 0.270614 0.0151512 0.256451 0.546427 0.706327 0.343244
784.12 1.1542 0.293542 0.0141511 0.237671 0.51483 0.678864 0.324878
791.026 1.10553 0.317838 0.0132424 0.220828 0.4848 0.652734 0.308223
797.932 1.11068 0.343542 0.0124145 0.205998 0.458814 0.62787 0.293457
804.837 1.05835 0.370692 0.0116583 0.192467 0.432582 0.604213 0.279683
811.743 1.03361 0.399324 0.0109661 0.180968 0.410122 0.581703 0.266818
818.649 0.876187 0.429474 0.0103312 0.170993 0.390083 0.560283 0.254854
825.555 0.949638 0.461176 0.00974952 0.160814 0.372832 0.539952 0.243696
832.46 0.922914 0.494462 0.00928061 0.152089 0.352413 0.524358 0.23323
839.366 1.00657 0.529361 0.00885629 0.143089 0.334028 0.510042 0.223069
846.272 1.01136 0.565903 0.00846104 0.134272 0.315108 0.496278 0.212858
853.178 0.944654 0.604116 0.00809229 0.127546 0.302442 0.483041 0.203316
860.083 0.988046 0.644022 0.00774719 0.121971 0.288219 0.470288 0.194377
866.989 0.914739 0.685646 0.00742181 0.116243 0.276114 0.457929 0.187664
873.895 0.942184 0.729009 0.00711713 0.109883 0.263996 0.446034 0.181772
880.801 0.914781 0.77413 0.00683146 0.103533 0.255716 0.434582 0.176149
887.706 0.918857 0.821025 0.00656461 0.0995325 0.243307 0.423552 0.170668
894.612 0.828203 0.869709 0.00631655 0.0956458 0.233678 0.412926 0.164013
901.518 0.63485 0.920195 0.00608282 0.0919828 0.223755 0.402684 0.157772
908.424 0.674261 0.972494 0.00586271 0.0881245 0.213577 0.392825 0.151886
915.329 0.64479 1.02661 0.00565606 0.0827853 0.206507 0.383365 0.146401
922.235 0.710792 1.08256 0.00546064 0.0785115 0.195167 0.374237 0.141209
929.141 0.534473 1.14034 0.00527568 0.0752344 0.188563 0.365424 0.136288
936.047 0.161512 1.19995 0.00510045 0.0721537 0.181637 0.356915 0.131715
942.952 0.284377 1.2614 0.00493429 0.0688742 0.174458 0.348695 0.127771
949.858 0.196417 1.32468 0.0047766 0.0647394 0.168193 0.340752 0.124033
956.764 0.284251 1.38978 0.00462557 0.0617764 0.16116 0.333064 0.120453
963.67 0.473935 1.45671 0.00448074 0.0596152 0.156103 0.32563 0.116976
970.575 0.68028 1.52545 0.004343 0.0575521 0.150683 0.31844 0.113655
977.481 0.627307 1.59599 0.0042119 0.0555809 0.145504 0.311484 0.110485
984.387 0.718299 1.66832 0.00408702 0.0536957 0.140557 0.304751 0.10745
991.293 0.752831 1.74242 0.00399917 0.0519463 0.135922 0.298271 0.104571
998.198 0.73881 1.81829 0.00398047 0.0503851 0.13167 0.292087 0.101791
1005.1 0.684949 1.89589 0.00396452 0.0488896 0.127597 0.286098 0.0991249
1012.01 0.718758 1.97522 0.00395115 0.0474559 0.123697 0.280294 0.0965757
1018.92 0.690923 2.05625 0.00388953 0.0459927 0.119848 0.274647 0.0940605
1025.82 0.696569 2.13896 0.00371616 0.0443874 0.115851 0.26912 0.0915135
1032.73 0.679332 2.22332 0.0035487 0.0428416 0.112006 0.263756 0.0890738
1039.63 0.67341 2.30931 0.00338589 0.041352 0.108306 0.258549 0.0867957
1046.54 0.65242 2.3969 0.00322844 0.0399155 0.104741 0.253492 0.0846606
1053.44 0.647976 2.48606 0.00311762 0.0386791 0.101471 0.248592 0.0826436
1060.35 0.630722 2.57676 0.00304087 0.0375825 0.0984612 0.243835 0.0807297
1067.26 0.620095 2.66896 0.0029672 0.0365238 0.0955603 0.239214 0.0789006
1074.16 0.616878 2.76265 0.00289647 0.0355011 0.0927624 0.234724 0.0772483
1081.07 0.581409 2.85777 0.00282852 0.0345128 0.0901233 0.23036 0.0756471
1087.97 0.592471 2.95431 0.00276321 0.033557 0.087672 0.226118 0.0740751
1094.88 0.522965 3.05221 0.00270057 0.0326327 0.085306 0.222004 0.0725104
1101.78 0.474883 3.15145 0.00264071 0.0317386 0.0830241 0.218031 0.0709553
1108.69 0.413668 3.25198 0.00258306 0.0308726 0.0808171 0.214165 0.069483
1115.6 0.220942 3.35377 0.00252753 0.0300334 0.0787655 0.210402 0.0680821
1122.5 0.105025 3.45677 0.00247402 0.0292197 0.0768048 0.206739 0.0666728
1129.41 0.0914986 3.56095 0.00242948 0.0284304 0.0749056 0.203171 0.0652826
1136.31 0.17865 3.66627 0.00239912 0.0276643 0.0730647 0.199693 0.0638688
1143.22 0.268274 3.77268 0.00236929 0.0269205 0.0711969 0.196294 0.0625016
1150.13 0.131869 3.88015 0.00234012 0.026198 0.0693749 0.192983 0.0614254
1157.03 0.314491 3.98862 0.00231157 0.0254961 0.0676073 0.189755 0.0604276
1163.94 0.406107 4.09806 0.00228364 0.0248138 0.0658824 0.186609 0.0594999
1170.84 0.449953 4.20842 0.00225631 0.0241741 0.0640639 0.183542 0.058543
1177.75 0.388298 4.31967 0.00220254 0.023514 0.0622283 0.180522 0.0574944
1184.65 0.411716 4.43174 0.00212474 0.0228298 0.0604155 0.177548 0.0564728
1191.56 0.461576 4.54461 0.00204837 0.0221633 0.0587842 0.174647 0.0554775
1198.47 0.401794 4.65823 0.00197341 0.0215138 0.0571976 0.171816 0.0546389
1200 0.44825 4.68358 0.00195694 0.0213717 0.0568509 0.171196 0.0544694