Folder: plasmo-split (part 2)

File: forSETO2021spectra.dat
# wavelength[nm] Solar Irradiance[W/m^2/nm] BB intensity@1273.15K[W/m^2/nm] Au (3e-08 m core + 1.5e-08 m shell) SiC (8e-08 m core + 2e-08 m shell) B4C (8e-08 m core + 3e-08 m shell) TiN (5e-08 m core + 1.25e-08 m shell) ZrN (3.5e-08 m core + 1e-08 m shell) CeO2 (5e-08 m core + 1e-08 m shell) Au (1.5e-08 m core + 1.5e-08 m shell)
280 4.7309e-23 1.95984e-10 1.77882 1.46888 1.51265 1.63821 1.61683 1.6474 1.94122
288.44 1.58586e-10 5.51109e-10 1.83967 1.44207 1.47586 1.62663 1.62896 1.66612 1.84266
296.881 9.07282e-05 1.45518e-09 1.85344 1.40872 1.42975 1.59873 1.61809 1.646 1.76364
305.321 0.0179118 3.62721e-09 1.82208 1.3614 1.36374 1.55688 1.59809 1.59517 1.68353
313.761 0.113908 8.5758e-09 1.78152 1.37522 1.35497 1.5883 1.57814 1.60282 1.59971
322.202 0.220036 1.93138e-08 1.76292 1.44609 1.40699 1.68608 1.51887 1.68062 1.51692
330.642 0.420782 4.15916e-08 1.61467 1.58359 1.52242 1.83147 1.26153 1.75244 1.45043
339.083 0.465352 8.59369e-08 1.35705 1.67708 1.63361 1.89531 0.992357 1.73007 1.40973
347.523 0.476665 1.70896e-07 1.17509 1.72622 1.72566 1.88114 0.831923 1.75203 1.38829
355.963 0.556542 3.28e-07 1.03327 1.76821 1.80561 1.79978 0.700898 1.51761 1.36976
364.404 0.601678 6.09127e-07 0.970574 1.79247 1.84577 1.69248 0.64972 1.08358 1.34478
372.844 0.626243 1.09706e-06 0.921143 1.82057 1.88975 1.56654 0.609291 0.585664 1.31601
381.284 0.720908 1.92023e-06 0.896726 1.83331 1.93903 1.45453 0.591983 0.324445 1.285
389.725 0.776463 3.27269e-06 0.877813 1.82749 1.98735 1.35339 0.578793 0.159607 1.25212
398.165 0.903488 5.44053e-06 0.867312 1.79931 2.00971 1.27745 0.57759 0.111226 1.21689
406.606 1.11053 8.83605e-06 0.849079 1.76361 2.00689 1.21256 0.586821 0.0773765 1.18904
415.046 1.22748 1.40408e-05 0.826417 1.73686 1.98247 1.16989 0.609027 0.0617083 1.16587
423.486 1.21514 2.18589e-05 0.805626 1.71913 1.93743 1.17522 0.631785 0.049189 1.15082
431.927 1.28204 3.33815e-05 0.786649 1.70564 1.87358 1.1867 0.657687 0.0389137 1.13992
440.367 1.34307 5.00635e-05 0.769064 1.68827 1.79854 1.2039 0.691689 0.032069 1.13293
448.807 1.50519 7.38131e-05 0.742457 1.65955 1.72116 1.22624 0.729829 0.0282766 1.12364
457.248 1.57698 0.000107094 0.713145 1.61718 1.64751 1.25339 0.77927 0.0249913 1.11354
465.688 1.55722 0.000153044 0.666944 1.56656 1.58377 1.28546 0.843049 0.0221087 1.15902
474.128 1.5737 0.000215597 0.613981 1.51397 1.53223 1.32274 0.915988 0.0195507 1.22591
482.569 1.61234 0.000299631 0.596912 1.468 1.49764 1.36285 0.984233 0.0177213 1.38255
491.009 1.55883 0.000411116 0.589807 1.42928 1.47491 1.40748 1.06054 0.0162367 1.63082
499.45 1.54818 0.000557273 0.588179 1.39762 1.46179 1.4616 1.14666 0.014879 1.90881
507.89 1.52085 0.000746743 0.605449 1.37312 1.45689 1.52227 1.25194 0.0136319 2.10667
516.33 1.45101 0.000989757 0.608523 1.35589 1.45912 1.5819 1.36938 0.0124812 2.13856
524.771 1.58094 0.00129831 0.719026 1.34666 1.46752 1.63934 1.49201 0.0114155 1.61608
533.211 1.45004 0.00168634 0.884705 1.34588 1.48139 1.69303 1.60645 0.00986791 1.08406
541.651 1.50717 0.00216989 1.13553 1.35504 1.50042 1.74184 1.71985 0.00842151 0.710222
550.092 1.53974 0.00276726 1.49306 1.37546 1.52386 1.78414 1.833 0.00706635 0.511072
558.532 1.48699 0.00349919 2.07275 1.40772 1.55128 1.81827 1.93775 0.00579317 0.368033
566.972 1.5294 0.00438896 2.94122 1.45275 1.58179 1.84238 2.01382 0.00505516 0.27102
575.413 1.47262 0.00546254 3.86651 1.51001 1.61425 1.85513 2.0531 0.0049324 0.20688
583.853 1.54526 0.0067487 4.04061 1.57795 1.6473 1.85584 2.05467 0.00481719 0.158209
592.294 1.44148 0.00827905 2.97407 1.65134 1.67898 1.84392 2.01441 0.00470889 0.122061
600.734 1.46253 0.0100882 1.82591 1.72201 1.70625 1.81927 1.94162 0.0046069 0.0973739
609.174 1.4738 0.0122136 1.08944 1.77846 1.72655 1.78262 1.84537 0.00419384 0.0777602
617.615 1.44575 0.0146958 0.665991 1.80566 1.73647 1.73523 1.72452 0.00325048 0.062047
626.055 1.40343 0.0175783 0.442142 1.79085 1.73303 1.67511 1.59132 0.00235158 0.0515538
634.495 1.43702 0.0209075 0.308755 1.72642 1.71344 1.6105 1.4557 0.00149388 0.0435888
642.936 1.45154 0.0247325 0.221237 1.61752 1.67556 1.54433 1.32374 0.000674285 0.03691
651.376 1.42303 0.0291056 0.162969 1.47955 1.62217 1.47793 1.20408 0.000335924 0.0312794
659.817 1.3976 0.0340812 0.12512 1.32608 1.55485 1.41205 1.09339 0.000342429 0.0269097
668.257 1.42127 0.0397165 0.0976334 1.17235 1.47569 1.34708 0.991844 0.000348672 0.0232143
676.697 1.40301 0.0460709 0.0770046 1.0289 1.3889 1.28354 0.902857 0.000354685 0.020026
685.138 1.37053 0.0532061 0.0612526 0.900115 1.29812 1.22184 0.822613 0.000360467 0.0172652
693.578 1.25252 0.0611854 0.0503913 0.786123 1.20581 1.16232 0.749478 0.000366032 0.0152658
702.018 1.26753 0.0700742 0.0426695 0.688959 1.11594 1.10529 0.680945 0.000371337 0.0137921
710.459 1.31658 0.0799389 0.0364009 0.606981 1.03051 1.05074 0.619876 0.00037647 0.0124845
718.899 0.93392 0.0908473 0.0312589 0.535897 0.94981 0.99875 0.568455 0.000381418 0.0113208
727.339 1.06972 0.102868 0.0270017 0.475594 0.874828 0.949334 0.526986 0.000386208 0.0102821
735.78 1.20852 0.116071 0.0240749 0.422916 0.805082 0.902329 0.489336 0.000390917 0.00959159
744.22 1.25017 0.130524 0.0217355 0.379106 0.744136 0.857753 0.454276 0.000395544 0.00903078
752.661 1.22877 0.146299 0.0197085 0.341684 0.685834 0.815645 0.421635 0.000400033 0.00851637
761.101 0.20782 0.163464 0.0179418 0.30856 0.633471 0.775919 0.392129 0.000404406 0.00804356
769.541 1.14566 0.182089 0.0163939 0.279575 0.585749 0.738476 0.365416 0.000408657 0.00760813
777.982 1.17133 0.202241 0.0150352 0.254247 0.542755 0.703208 0.341132 0.000412799 0.00720527
786.422 1.15321 0.223987 0.0138386 0.231874 0.505904 0.670009 0.319065 0.000416838 0.00683069
794.862 1.09375 0.247392 0.0127731 0.212339 0.470215 0.638768 0.299891 0.000420768 0.00648341
803.303 1.06948 0.272522 0.0118206 0.195377 0.437552 0.609369 0.282662 0.000424605 0.00616094
811.743 1.03361 0.299437 0.0109661 0.180968 0.410122 0.581703 0.266818 0.00042836 0.00586107
820.183 0.88679 0.328197 0.0101975 0.168599 0.386842 0.555671 0.252308 0.000432018 0.00558183
828.624 0.899393 0.35886 0.00952994 0.156842 0.364638 0.532561 0.238963 0.000435513 0.00533454
837.064 1.00855 0.391481 0.00899437 0.14635 0.340856 0.514751 0.226607 0.000438932 0.00514273
845.505 1.01761 0.426112 0.0085036 0.135183 0.317286 0.49778 0.213959 0.000442278 0.00496174
853.945 0.857381 0.462801 0.00805285 0.126881 0.300884 0.481601 0.202295 0.000445545 0.0047908
862.385 0.996806 0.501594 0.00763632 0.120056 0.283906 0.466115 0.191725 0.00044883 0.00462917
870.826 0.956255 0.542534 0.0072501 0.112753 0.270137 0.451264 0.184356 0.000452165 0.0044762
879.266 0.937361 0.585659 0.00689338 0.104541 0.257976 0.43709 0.177376 0.000455437 0.00433128
887.706 0.918857 0.631006 0.00656461 0.0995325 0.243307 0.423552 0.170668 0.00045866 0.00419419
896.147 0.748311 0.678606 0.00626341 0.0946255 0.231123 0.410617 0.162595 0.000461832 0.00406499
904.587 0.828435 0.728487 0.00598325 0.0905021 0.219138 0.398251 0.155111 0.00046495 0.00394213
913.028 0.628289 0.780672 0.00572365 0.0846384 0.210359 0.386481 0.14819 0.000467904 0.0038252
921.468 0.742951 0.835182 0.00548183 0.0789545 0.195705 0.375235 0.141772 0.000470765 0.00371383
929.908 0.443033 0.892034 0.00525574 0.0748762 0.187731 0.364464 0.135757 0.000473578 0.00360769
938.349 0.269709 0.951239 0.00504409 0.071239 0.179199 0.354143 0.130372 0.000476347 0.00350644
946.789 0.333875 1.01281 0.00484568 0.0664896 0.171266 0.344249 0.125673 0.000479072 0.0034098
955.229 0.338198 1.07674 0.00465876 0.0622707 0.161731 0.33475 0.121235 0.000481773 0.00331693
963.67 0.473935 1.14304 0.00448074 0.0596152 0.156103 0.32563 0.116976 0.000484452 0.00322577
972.11 0.678714 1.2117 0.0043133 0.0571063 0.149512 0.316874 0.112939 0.000487089 0.00313861
980.55 0.664515 1.28272 0.00415565 0.0547327 0.143276 0.308464 0.10912 0.000489689 0.00305524
988.991 0.748928 1.35609 0.00400705 0.0524839 0.137386 0.300383 0.105504 0.000492256 0.00297544
997.431 0.739348 1.43178 0.00398241 0.0505552 0.132134 0.292765 0.102094 0.000699023 0.00289901
1005.87 0.708567 1.50979 0.00396291 0.0487273 0.127156 0.285444 0.0988354 0.00090296 0.00282576
1014.31 0.716778 1.59008 0.00394722 0.0469911 0.122441 0.278399 0.0957505 0.00110266 0.00275552
1022.75 0.693747 1.67264 0.00379247 0.0450934 0.117608 0.271556 0.0926331 0.00103827 0.00268813
1031.19 0.687458 1.75744 0.00358542 0.0431802 0.112848 0.264935 0.0896004 0.000866385 0.00262344
1039.63 0.67341 1.84444 0.00338589 0.041352 0.108306 0.258549 0.0867957 0.000698217 0.00256028
1048.07 0.662463 1.93361 0.00319415 0.0396032 0.103967 0.252388 0.0842017 0.000533642 0.00249932
1056.51 0.645593 2.02491 0.00308312 0.0381869 0.10012 0.24646 0.0817772 0.00050852 0.00244073
1064.95 0.62926 2.1183 0.00299142 0.0368726 0.0965155 0.24074 0.0794993 0.000510497 0.00238439
1073.39 0.610711 2.21374 0.00290419 0.035613 0.0930684 0.235217 0.0774293 0.000512445 0.00233018
1081.83 0.587985 2.31118 0.00282113 0.034405 0.0898467 0.229883 0.0754699 0.000514366 0.00227799
1090.28 0.564708 2.41057 0.00274201 0.0332454 0.0868736 0.22473 0.0735623 0.000516258 0.00222773
1098.72 0.506352 2.51186 0.00266703 0.0321324 0.0840288 0.219783 0.0716401 0.000517942 0.0021793
1107.16 0.47253 2.61501 0.00259569 0.0310627 0.0813013 0.215015 0.0698003 0.000519508 0.00213262
1115.6 0.220942 2.71994 0.00252753 0.0300334 0.0787655 0.210402 0.0680821 0.000521048 0.0020876
1124.04 0.110006 2.82662 0.00246239 0.0290422 0.0763775 0.205938 0.0663606 0.000522559 0.00204417
1132.48 0.195563 2.93497 0.00241592 0.0280871 0.0740805 0.201616 0.0646491 0.000524044 0.00201674
1140.92 0.19854 3.04494 0.00237916 0.027166 0.0718167 0.197417 0.0629489 0.000525584 0.00199762
1149.36 0.183869 3.15647 0.00234333 0.0262773 0.0695746 0.193346 0.0615436 0.00052713 0.00197875
1157.8 0.312289 3.2695 0.00230844 0.0254193 0.0674141 0.189402 0.0603235 0.000528654 0.00196012
1166.24 0.383293 3.38395 0.00227446 0.0245939 0.0652703 0.185578 0.0591955 0.000530154 0.00194174
1174.68 0.415319 3.49978 0.00223759 0.0238239 0.0630667 0.181867 0.057966 0.000524413 0.00192361
1183.12 0.436452 3.6169 0.0021419 0.0229803 0.0607864 0.178202 0.0566975 0.000404854 0.00190574
1191.56 0.461576 3.73526 0.00204837 0.0221633 0.0587842 0.174647 0.0554775 0.000287352 0.00188811
1200 0.44825 3.85478 0.00195694 0.0213717 0.0568509 0.171196 0.0544694 0.000171851 0.00187073